subID	 trial	 prime	 target	 response	 Acc	 RT
1001	 1	 attaque	 habitude	 j	 1.000000	 0.754293
1001	 2	 film	 opéra	 f	 1.000000	 0.886233
1001	 3	 oignon	 ail	 f	 1.000000	 0.629785
1001	 4	 bouteille	 rideau	 j	 1.000000	 0.647510
1001	 5	 émotion	 ballon	 j	 1.000000	 0.669486
1001	 6	 récitation	 sac-à-dos	 j	 1.000000	 0.805101
1001	 7	 fraise	 mangue	 f	 1.000000	 0.822992
1001	 8	 considérer	 surveiller	 f	 0.000000	 1.042653
1001	 9	 examen	 chaussette	 j	 1.000000	 0.870157
1001	 10	 servant	 raisin	 j	 1.000000	 0.841602
1001	 11	 voleur	 police	 f	 1.000000	 0.679201
1001	 12	 ventre	 révolution	 j	 1.000000	 0.888999
1001	 13	 cygne	 tuyau	 j	 1.000000	 0.776502
1001	 14	 nouilles	 ravioli	 f	 1.000000	 0.818177
1001	 15	 violence	 journal	 j	 1.000000	 0.692026
1001	 16	 biographie	 tradition	 j	 1.000000	 1.085650
1001	 17	 crayon	 voiture	 j	 1.000000	 0.833245
1001	 18	 radio	 téléphone	 f	 1.000000	 0.751032
1001	 19	 biscuit	 égalité	 j	 1.000000	 0.711015
1001	 20	 société	 photo	 j	 1.000000	 0.860720
1001	 21	 blague	 efficacité	 j	 1.000000	 0.846286
1001	 22	 colis	 timbre	 f	 1.000000	 0.760130
1001	 23	 diviser	 canoter	 j	 1.000000	 0.985880
1001	 24	 mur	 toit	 f	 1.000000	 0.767571
1001	 25	 pomme	 orange	 f	 1.000000	 0.531216
1001	 26	 couleur	 sérieux	 j	 1.000000	 0.531332
1001	 27	 clavier	 écran	 f	 1.000000	 0.689247
1001	 28	 angle	 rôle	 j	 1.000000	 0.713007
1001	 29	 lecture	 clé	 j	 1.000000	 0.692862
1001	 30	 publicité	 séisme	 j	 1.000000	 0.800520
1001	 31	 danse	 yoga	 j	 0.000000	 0.830265
1001	 32	 représentant	 prière	 j	 1.000000	 0.811753
1001	 33	 erreur	 lumière	 j	 1.000000	 0.967607
1001	 34	 vrac	 promenade	 j	 1.000000	 0.665312
1001	 35	 maison	 château	 f	 1.000000	 0.817140
1001	 36	 cheveux	 investissement	 j	 1.000000	 0.630838
1001	 37	 cuisine	 signature	 j	 1.000000	 0.596424
1001	 38	 pantalon	 manteau	 f	 1.000000	 0.520740
1001	 39	 ami	 chapeau	 j	 1.000000	 0.822117
1001	 40	 exploiter	 peler	 j	 1.000000	 0.767705
1001	 41	 bar	 restaurant	 f	 1.000000	 0.819439
1001	 42	 poire	 divorce	 j	 1.000000	 0.629175
1001	 43	 conseil	 balcon	 j	 1.000000	 0.774846
1001	 44	 système	 détail	 j	 1.000000	 1.270677
1001	 45	 avion	 tank	 f	 1.000000	 0.829676
1001	 46	 comédie	 dinosaure	 j	 1.000000	 0.665398
1001	 47	 professeur	 étudiant	 f	 1.000000	 0.885153
1001	 48	 longueur	 apparence	 j	 1.000000	 0.726630
1001	 49	 poison	 salaire	 j	 1.000000	 0.624385
1001	 50	 article	 moustique	 j	 1.000000	 0.596315
1001	 51	 kangourou	 singe	 f	 1.000000	 0.730172
1001	 52	 foulard	 gant	 f	 1.000000	 0.697907
1001	 53	 coiffure	 publication	 j	 1.000000	 0.741675
1001	 54	 valeur	 bouton	 j	 1.000000	 0.861738
1001	 55	 soleil	 attitude	 j	 1.000000	 0.573343
1001	 56	 cerise	 myrtille	 f	 1.000000	 0.903404
1001	 57	 jus	 lait	 f	 1.000000	 0.520722
1001	 58	 science	 mer	 j	 1.000000	 0.694896
1001	 59	 contrefaçon	 vacances	 j	 1.000000	 0.664712
1001	 60	 éponge	 chanson	 j	 1.000000	 0.650385
1001	 61	 piano	 guitare	 f	 1.000000	 0.520730
1001	 62	 flirter	 enquêter	 j	 1.000000	 1.038756
1001	 63	 natation	 surf	 f	 1.000000	 0.494679
1001	 64	 difficulté	 botte	 j	 1.000000	 0.662366
1001	 65	 garçon	 sud	 j	 1.000000	 0.694134
1001	 66	 vase	 ski	 j	 1.000000	 0.656015
1001	 67	 ville	 campagne	 f	 1.000000	 0.621862
1001	 68	 célèbre	 attention	 j	 1.000000	 0.579843
1001	 69	 concombre	 aubergine	 f	 1.000000	 0.473748
1001	 70	 objectif	 papillon	 j	 1.000000	 0.625513
1001	 71	 jargon	 action	 j	 1.000000	 0.853272
1001	 72	 abeille	 budget	 j	 1.000000	 0.604845
1001	 73	 banane	 pêche	 f	 1.000000	 0.552676
1001	 74	 oreille	 aventure	 j	 1.000000	 0.574484
1001	 75	 liquide	 promesse	 j	 1.000000	 0.684150
1001	 76	 capital	 doigt	 j	 1.000000	 0.715938
1001	 77	 médecin	 infirmière	 f	 1.000000	 0.657844
1001	 78	 devoir	 appliquer	 j	 1.000000	 1.023669
1001	 79	 rouge	 inondation	 j	 1.000000	 0.547035
1001	 80	 conférence	 présentation	 j	 0.000000	 1.161013
1001	 81	 comptable	 réunion	 f	 0.000000	 1.114240
1001	 82	 chameau	 éléphant	 f	 1.000000	 1.042057
1001	 83	 enquête	 parapluie	 j	 1.000000	 0.751747
1001	 84	 relation	 bâtiment	 j	 1.000000	 0.601304
1001	 85	 voile	 table	 j	 1.000000	 0.709254
1001	 86	 papier	 manuel	 j	 0.000000	 0.905245
1001	 87	 métro	 train	 f	 1.000000	 0.778712
1001	 88	 maïs	 criminel	 j	 1.000000	 0.558470
1001	 89	 lunette	 acteur	 j	 1.000000	 0.450498
1001	 90	 répétition	 poids	 j	 1.000000	 0.468180
1001	 91	 étoile	 lune	 f	 1.000000	 0.547912
1001	 92	 acclamer	 boire	 j	 1.000000	 0.583599
1001	 93	 canapé	 chaise	 f	 1.000000	 0.461404
1001	 94	 alerte	 chaussette 	 j	 1.000000	 0.439360
1001	 95	 courageux	 simple	 j	 1.000000	 0.705107
1001	 96	 frère	 poitrine	 j	 1.000000	 0.562715
1001	 97	 ananas	 papaye	 f	 1.000000	 0.640757
1001	 98	 forêt	 époux	 j	 1.000000	 0.542683
1001	 99	 secrétaire	 assistant	 f	 1.000000	 0.604620
1001	 100	 endroit	 premier	 j	 1.000000	 0.746551
1001	 101	 intervalle	 espion	 j	 1.000000	 0.686337
1001	 102	 écouteur	 peau	 j	 1.000000	 0.692133
1001	 103	 paradis	 enfer	 f	 1.000000	 0.644154
1001	 104	 empoisonné	 milieu	 j	 1.000000	 0.574028
1001	 105	 entreprise	 rat	 j	 1.000000	 0.763957
1001	 106	 télévision	 frigo	 j	 0.000000	 0.561894
1001	 107	 vêtement	 médecine	 j	 1.000000	 0.565753
1001	 108	 politique	 farine	 j	 1.000000	 0.520776
1001	 109	 saison	 journaliste	 j	 1.000000	 0.467751
1001	 110	 tasse	 assiette	 f	 1.000000	 0.405671
1001	 111	 confisqué	 inutile	 j	 1.000000	 0.769483
1001	 112	 équipe	 bracelet	 j	 1.000000	 0.495410
1001	 113	 canon	 bombe	 f	 1.000000	 0.533030
1001	 114	 biologie	 pastèque	 j	 1.000000	 0.562778
1001	 115	 paix	 rivière	 j	 1.000000	 0.650838
1001	 116	 horloge	 montre	 f	 1.000000	 0.596667
1001	 117	 auteur	 ceinture	 j	 1.000000	 0.618532
1001	 118	 père	 fils	 f	 1.000000	 0.574421
1001	 119	 secret	 Pérou	 j	 1.000000	 0.644095
1001	 120	 style	 épice	 j	 1.000000	 0.791914
1001	 121	 salon	 chambre	 f	 1.000000	 0.542241
1001	 122	 paysan	 commentaire	 j	 1.000000	 0.418269
1001	 123	 pierre	 nourriture	 j	 1.000000	 0.536079
1001	 124	 yeux	 nez	 f	 1.000000	 0.453985
1001	 125	 boîte	 grippe	 j	 1.000000	 0.563888
1001	 126	 faillite	 reflet	 j	 1.000000	 0.520718
1001	 127	 paysage	 cadeau	 j	 1.000000	 0.487615
1001	 128	 argent	 richesse	 j	 0.000000	 0.479553
1001	 129	 bougie	 piment	 j	 1.000000	 0.807160
1001	 130	 semaine	 baignoire	 j	 1.000000	 0.520717
1001	 131	 tigre	 lion	 f	 1.000000	 0.594995
1001	 132	 plantation	 race	 j	 1.000000	 0.412962
1001	 133	 plage	 ascenseur	 j	 1.000000	 0.434758
1001	 134	 pull	 chemise	 f	 1.000000	 0.426754
1001	 135	 accident	 parfum	 j	 1.000000	 0.418908
1001	 136	 expérience	 surprise	 j	 1.000000	 0.578764
1001	 137	 pain	 dessert	 f	 1.000000	 0.636464
1001	 138	 inévitable	 réfugié	 j	 1.000000	 0.442459
1001	 139	 beurre	 fromage	 f	 1.000000	 0.350400
1001	 140	 commerçant	 blessure	 j	 1.000000	 0.408432
1001	 141	 organe	 question	 j	 1.000000	 0.520757
1001	 142	 excitation	 intérêt	 j	 1.000000	 0.466422
1001	 143	 tortue	 crabe	 f	 1.000000	 0.594364
1001	 144	 logiciel	 mari	 j	 1.000000	 0.592253
1001	 145	 vocabulaire	 démission	 j	 1.000000	 0.562364
1001	 146	 peinture	 cou	 j	 1.000000	 0.660023
1001	 147	 fenêtre	 cheminée	 j	 0.000000	 0.578004
1001	 148	 litchi	 coco	 f	 1.000000	 0.801832
1001	 149	 partage	 citron	 j	 1.000000	 0.601362
1001	 150	 lance-pierre	 ressort	 j	 1.000000	 0.739406
1001	 151	 douane	 passeport	 f	 1.000000	 0.547034
1001	 152	 agenda	 chauffage	 j	 1.000000	 0.538751
1001	 153	 atelier	 triche	 j	 1.000000	 0.632939
1001	 154	 religion	 croyance	 f	 1.000000	 0.550629
1001	 155	 recherche	 pyjama	 j	 1.000000	 0.522228
1001	 156	 barbe	 renard	 j	 1.000000	 0.750122
1001	 157	 hôpital	 clinique	 f	 1.000000	 0.585817
1001	 158	 parc	 lèvre	 j	 1.000000	 0.569970
1001	 159	 égoïste	 occupé	 j	 1.000000	 0.489979
1001	 160	 ouvrier	 palais	 j	 1.000000	 0.809628
1001	 161	 soie	 coton	 f	 1.000000	 0.617036
1001	 162	 affaiblir	 éplucher	 j	 1.000000	 0.520859
1001	 163	 air	 espace	 j	 1.000000	 0.634806
1001	 164	 zèbre	 léopard	 f	 1.000000	 0.720528
1001	 165	 grenouille	 poète	 j	 1.000000	 0.796262
1001	 166	 miel	 loyer	 j	 1.000000	 0.454189
1001	 167	 araignée	 fourmi	 f	 1.000000	 0.278277
1001	 168	 solitude	 tante	 j	 1.000000	 0.708127
1001	 169	 match	 client	 j	 1.000000	 0.520714
1001	 170	 collier	 bague	 f	 1.000000	 0.467731
1001	 171	 carte	 blocage	 j	 1.000000	 0.573622
1001	 172	 patron	 champignon	 j	 1.000000	 0.555425
1001	 173	 vidéo	 maire	 j	 1.000000	 0.577488
1001	 174	 travail	 étude	 j	 0.000000	 0.520687
1001	 175	 précaution	 rappel	 j	 1.000000	 1.099460
1001	 176	 gingembre	 voix	 j	 1.000000	 0.414988
1001	 177	 ange	 démon	 f	 1.000000	 0.413041
1001	 178	 amande	 noix	 f	 1.000000	 0.387180
1001	 179	 confiture	 aéroport	 j	 1.000000	 0.457355
1001	 180	 ordinateur	 fidélité	 j	 1.000000	 0.445185
